{
	"resourceType": "Bundle",
	"type": "transaction",
	"entry": [{
		"resource": {
			"resourceType": "Patient",
			"id": "100001",
			"meta": {
				"versionId": "1"
			},
			"identifier": [{
				"use": "usual",
				"system": "urn:oid:2.16.840.1.113883.4.642.2.30",
				"value": "078-05-1120",
				"assigner": {
					"display": "U.S. Social Security Administration"
				}
			}],
			"active": true,
			"name": [{
				"use": "official",
				"family": [
					"Johnston"
				],
				"given": [
					"Jonathan",
					"James"
				]
			}],
			"telecom": [{
				"system": "phone",
				"value": "8885551234",
				"use": "home"
			}],
			"gender": "male",
			"birthDate": "1951-09-14",
			"deceasedDateTime": "2016-02-14T02:34:06.000-05:00",
			"address": [{
				"use": "home",
				"line": [
					"123 Main Street North"
				],
				"city": "Everytown",
				"state": "USA",
				"postalCode": "99999"
			}]
		},
		"request": {
			"method": "PUT",
			"url": "Patient/100001"
		}
	}, {
		"resource": {
			"resourceType": "Patient",
			"id": "100002",
			"meta": {
				"versionId": "1"
			},
			"identifier": [{
				"use": "usual",
				"system": "urn:oid:2.16.840.1.113883.4.642.2.30",
				"value": "078-05-1120",
				"assigner": {
					"display": "U.S. Social Security Administration"
				}
			}],
			"active": true,
			"name": [{
				"use": "official",
				"family": [
					"Ivy"
				],
				"given": [
					"Holly"
				]
			}],
			"telecom": [{
				"system": "phone",
				"value": "8885551234",
				"use": "home"
			}],
			"gender": "female",
			"birthDate": "1951-09-14",
			"deceasedDateTime": "2016-02-14T02:34:06.000-05:00",
			"address": [{
				"use": "home",
				"line": [
					"123 Main Street North"
				],
				"city": "Everytown",
				"state": "USA",
				"postalCode": "99999"
			}]
		},
		"request": {
			"method": "PUT",
			"url": "Patient/100002"
		}
	}, {
		"resource": {
			"resourceType": "Condition",
			"id": "200001",
			"meta": {
				"versionId": "1"
			},
			"patient": {
				"reference": "Patient/100001"
			},
			"code": {
				"coding": [{
					"system": "http://snomed.info/sct",
					"code": "73211009",
					"display": "Diabetes mellitus"
				}]
			},
			"clinicalStatus": "active",
			"verificationStatus": "confirmed",
			"onsetQuantity": {
				"value": 35
			}
		},
		"request": {
			"method": "PUT",
			"url": "Condition/200001"
		}
	}, {
		"resource": {
			"resourceType": "Condition",
			"id": "200002",
			"meta": {
				"versionId": "1"
			},
			"patient": {
				"reference": "Patient/100001"
			},
			"code": {
				"coding": [{
					"system": "http://snomed.info/sct",
					"code": "29889000",
					"display": "Rupture of heart"
				}]
			},
			"clinicalStatus": "active",
			"verificationStatus": "confirmed",
			"onsetDateTime": "2016-02-14T02:21:00.000-05:00"
		},
		"request": {
			"method": "PUT",
			"url": "Condition/200002"
		}
	}, {
		"resource": {
			"resourceType": "Condition",
			"id": "200003",
			"meta": {
				"versionId": "1"
			},
			"patient": {
				"reference": "Patient/100001"
			},
			"code": {
				"coding": [{
					"system": "http://snomed.info/sct",
					"code": "57054005",
					"display": "Acute myocardial infarction"
				}]
			},
			"clinicalStatus": "active",
			"verificationStatus": "confirmed",
			"onsetDateTime": "2016-02-10T21:00:00.000-05:00"
		},
		"request": {
			"method": "PUT",
			"url": "Condition/200003"
		}
	}, {
		"resource": {
			"resourceType": "Condition",
			"id": "200004",
			"meta": {
				"versionId": "1"
			},
			"patient": {
				"reference": "Patient/100001"
			},
			"code": {
				"coding": [{
					"system": "http://snomed.info/sct",
					"code": "398274000",
					"display": "Coronary artery thrombosis"
				}]
			},
			"clinicalStatus": "active",
			"verificationStatus": "confirmed",
			"onsetQuantity": {
				"value": 50
			}
		},
		"request": {
			"method": "PUT",
			"url": "Condition/200004"
		}
	}, {
		"resource": {
			"resourceType": "Condition",
			"id": "200005",
			"meta": {
				"versionId": "1"
			},
			"patient": {
				"reference": "Patient/100001"
			},
			"code": {
				"coding": [{
					"system": "http://snomed.info/sct",
					"code": "371915000",
					"display": "Diffuse disease of coronary artery"
				}]
			},
			"clinicalStatus": "active",
			"verificationStatus": "confirmed",
			"onsetQuantity": {
				"value": 48
			}
		},
		"request": {
			"method": "PUT",
			"url": "Condition/200005"
		}
	}, {
		"resource": {
			"resourceType": "Condition",
			"id": "200006",
			"meta": {
				"versionId": "1"
			},
			"patient": {
				"reference": "Patient/100001"
			},
			"code": {
				"coding": [{
					"system": "http://snomed.info/sct",
					"code": "54556006",
					"display": "Fracture of ulna"
				}]
			},
			"clinicalStatus": "active",
			"verificationStatus": "confirmed",
			"onsetQuantity": {
				"value": 52
			}
		},
		"request": {
			"method": "PUT",
			"url": "Condition/200006"
		}
	}, {
		"resource": {
			"resourceType": "Condition",
			"id": "200007",
			"meta": {
				"versionId": "1"
			},
			"patient": {
				"reference": "Patient/100002"
			},
			"code": {
				"coding": [{
					"system": "http://snomed.info/sct",
					"code": "93934004",
					"display": "Malignant neoplasm of ovary"
				}]
			},
			"clinicalStatus": "active",
			"verificationStatus": "confirmed",
			"onsetQuantity": {
				"value": 61
			}
		},
		"request": {
			"method": "PUT",
			"url": "Condition/200007"
		}
	}]
}