{
    "resourceType": "Bundle",
    "id": "536ffa27-3943-45c3-9493-5564e51172f7",
    "meta": {
        "lastUpdated": "2016-02-22T00:00:00.000-05:00"
    },
    "total": 9,
    "entry": [
        {
            "resource": {
                "resourceType":"Patient",
                "id":"gtp001",
                "meta":{
                    "versionId":"1"
                },
                "identifier":[
                    {
                        "use":"usual",
                        "system":"urn:oid:2.16.840.1.113883.4.642.2.30",
                        "value":"078-05-1120",
                        "assigner":{
                            "display":"U.S. Social Security Administration"
                        }
                    }
                ],
                "active":true,
                "name":[
                    {
                        "use":"official",
                        "family":[
                            "Johnston"
                        ],
                        "given":[
                            "Jonathan",
                            "James"
                        ]
                    }
                ],
                "telecom":[
                    {
                        "system":"phone",
                        "value":"8885551234",
                        "use":"home"
                    }
                ],
                "gender":"Male",
                "birthDate":"1951-09-14",
                "deceasedDateTime":"2016-02-14T02:34:06.000-05:00",
                "address":[
                    {
                        "use":"home",
                        "line":[
                            "123 Main Street North"
                        ],
                        "city":"Everytown",
                        "state":"USA",
                        "postalCode":"99999"
                    }
                ]
            },
            "request": {
                "method": "POST",
                "url": "http://cdcfire.bme.gatech.edu/fhir/Patient/gtp001"
            }
        },
        {
            "resource": {
                "resourceType":"Patient",
                "id":"gtp002",
                "meta":{
                    "versionId":"1"
                },
                "identifier":[
                    {
                        "use":"usual",
                        "system":"urn:oid:2.16.840.1.113883.4.642.2.30",
                        "value":"078-05-1120",
                        "assigner":{
                            "display":"U.S. Social Security Administration"
                        }
                    }
                ],
                "active":true,
                "name":[
                    {
                        "use":"official",
                        "family":[
                            "Flax"
                        ],
                        "given":[
                            "Holly"
                        ]
                    }
                ],
                "telecom":[
                    {
                        "system":"phone",
                        "value":"8885551234",
                        "use":"home"
                    }
                ],
                "gender":"Female",
                "birthDate":"1951-09-14",
                "deceasedDateTime":"2016-02-14T02:34:06.000-05:00",
                "address":[
                    {
                        "use":"home",
                        "line":[
                            "123 Main Street North"
                        ],
                        "city":"Everytown",
                        "state":"USA",
                        "postalCode":"99999"
                    }
                ]
            },
            "request": {
                "method": "POST",
                "url": "http://cdcfire.bme.gatech.edu/fhir/Patient/gtp002"
            }
        },
        {
            "resource": {
                "resourceType": "Condition",
                "id": "gtc001",
                "meta": {
                    "versionId": "1"
                },
                "patient": {
                    "reference": "Patient/gtp001"
                },
                "code": {
                    "coding": [
                        {
                            "system": "http://snomed.info/sct",
                            "code": "73211009",
                            "display": "Diabetes mellitus"
                        }
                    ]
                },
                "clinicalStatus": "active",
                "verificationStatus": "confirmed",
                "onsetQuantity": {
                    "value": 35
                }
            },
            "request": {
                "method": "POST",
                "url": "http://cdcfire.bme.gatech.edu/fhir/Condition/gtc001"
            }
        },
        {
            "resource": {
                "resourceType": "Condition",
                "id": "gtc002",
                "meta": {
                    "versionId": "1"
                },
                "patient": {
                    "reference": "Patient/gtp001"
                },
                "code": {
                    "coding": [
                        {
                            "system": "http://snomed.info/sct",
                            "code": "29889000",
                            "display": "Rupture of heart"
                        }
                    ]
                },
                "clinicalStatus": "active",
                "verificationStatus": "confirmed",
                "onsetDateTime": "2016-02-14T02:21:00.000-05:00"
            },
            "request": {
                "method": "POST",
                "url": "http://cdcfire.bme.gatech.edu/fhir/Condition/gtc002"
            }
        },
        {
            "resource": {
                "resourceType": "Condition",
                "id": "gtc003",
                "meta": {
                    "versionId": "1"
                },
                "patient": {
                    "reference": "Patient/gtp001"
                },
                "code": {
                    "coding": [
                        {
                            "system": "http://snomed.info/sct",
                            "code": "57054005",
                            "display": "Acute myocardial infarction"
                        }
                    ]
                },
                "clinicalStatus": "active",
                "verificationStatus": "confirmed",
                "onsetDateTime": "2016-02-10T21:00:00.000-05:00"
            },
            "request": {
                "method": "POST",
                "url": "http://cdcfire.bme.gatech.edu/fhir/Condition/gtc003"
            }
        },
        {
            "resource": {
                "resourceType": "Condition",
                "id": "gtc004",
                "meta": {
                    "versionId": "1"
                },
                "patient": {
                    "reference": "Patient/gtp001"
                },
                "code": {
                    "coding": [
                        {
                            "system": "http://snomed.info/sct",
                            "code": "398274000",
                            "display": "Coronary artery thrombosis"
                        }
                    ]
                },
                "clinicalStatus": "active",
                "verificationStatus": "confirmed",
                "onsetQuantity": {
                    "value": 50
                }
            },
            "request": {
                "method": "POST",
                "url": "http://cdcfire.bme.gatech.edu/fhir/Condition/gtc004"
            }
        },
        {
            "resource": {
                "resourceType": "Condition",
                "id": "gtc005",
                "meta": {
                    "versionId": "1"
                },
                "patient": {
                    "reference": "Patient/gtp001"
                },
                "code": {
                    "coding": [
                        {
                            "system": "http://snomed.info/sct",
                            "code": "371915000",
                            "display": "Diffuse disease of coronary artery"
                        }
                    ]
                },
                "clinicalStatus": "active",
                "verificationStatus": "confirmed",
                "onsetQuantity": {
                    "value": 48
                }
            },
            "request": {
                "method": "POST",
                "url": "http://cdcfire.bme.gatech.edu/fhir/Condition/gtc005"
            }
        },
        {
            "resource": {
                "resourceType": "Condition",
                "id": "gtc006",
                "meta": {
                    "versionId": "1"
                },
                "patient": {
                    "reference": "Patient/gtp001"
                },
                "code": {
                    "coding": [
                        {
                            "system": "http://snomed.info/sct",
                            "code": "54556006",
                            "display": "Fracture of ulna"
                        }
                    ]
                },
                "clinicalStatus": "active",
                "verificationStatus": "confirmed",
                "onsetQuantity": {
                    "value": 52
                }
            },
            "request": {
                "method": "POST",
                "url": "http://cdcfire.bme.gatech.edu/fhir/Condition/gtc006"
            }
        },
        {
            "resource": {
                "resourceType": "Condition",
                "id": "gtc007",
                "meta": {
                    "versionId": "1"
                },
                "patient": {
                    "reference": "Patient/gtp002"
                },
                "code": {
                    "coding": [
                        {
                            "system": "http://snomed.info/sct",
                            "code": "93934004",
                            "display": "Malignant neoplasm of ovary"
                        }
                    ]
                },
                "clinicalStatus": "active",
                "verificationStatus": "confirmed",
                "onsetQuantity": {
                    "value": 61
                }
            },
            "request": {
                "method": "POST",
                "url": "http://cdcfire.bme.gatech.edu/fhir/Condition/gtc007"
            }
        },
        {
            "resource": {
                "resourceType": "Condition",
                "id": "gtc008",
                "meta": {
                    "versionId": "1"
                },
                "patient": {
                    "reference": "Patient/gtp001"
                },
                "code": {
                    "coding": [
                        {
                            "system": "http://snomed.info/sct",
                            "code": "127295002",
                            "display": "Traumatic brain injury"
                        }
                    ]
                },
                "clinicalStatus": "active",
                "verificationStatus": "confirmed",
                "onsetDateTime": "2015-12-22T21:00:00.000-05:00"
            },
            "request": {
                "method": "POST",
                "url": "http://cdcfire.bme.gatech.edu/fhir/Condition/gtc008"
            }
        },
        {
            "resource": {
                "resourceType": "Condition",
                "id": "gtc009",
                "meta": {
                    "versionId": "1"
                },
                "patient": {
                    "reference": "Patient/gtp001"
                },
                "code": {
                    "coding": [
                        {
                            "system": "http://snomed.info/sct",
                            "code": "2032001",
                            "display": "Intracranial swelling"
                        }
                    ]
                },
                "clinicalStatus": "active",
                "verificationStatus": "confirmed",
                "onsetDateTime": "2015-12-28T21:00:00.000-05:00"
            },
            "request": {
                "method": "POST",
                "url": "http://cdcfire.bme.gatech.edu/fhir/Condition/gtc009"
            }
        }
    ]
}